Folder: chiplotter/integ_1

Note: README.md
"""Chiplotter""" is a GUI designed for easy plotting of Fit2d generated chi files.
The GUI provides also an easy way to create Fit2d macros for integration.
Edit the "pipeline.py" and "mycakeparameters1.txt" to select the correct
integration parameters, and add more parameter files if you wish to integrate
different sections.

File: LaB6_0003.chi
D:\XRDmacros\chiplotter/LaB6_0003.mar3450: Azimuth/2-theta
2-Theta Angle (Degrees)

       1500
 0.754866  17.9398
 0.797234  18.3127
 0.839601  18.6509
 0.881969  19.196
 0.924337  19.5682
 0.966704  19.9325
 1.00907  19.4102
 1.05144  20.1377
 1.09381  19.6839
 1.13617  19.8791
 1.17854  20.0968
 1.22091  20.2366
 1.26328  20.4082
 1.30564  20.345
 1.34801  20.6054
 1.39038  20.9848
 1.43275  21.3081
 1.47511  20.9205
 1.51748  20.7287
 1.55985  21.2616
 1.60222  21.2264
 1.64459  21.1709
 1.68695  21.4066
 1.72932  21.8431
 1.77169  21.7078
 1.81406  21.5518
 1.85642  21.5483
 1.89879  21.8529
 1.94116  21.5066
 1.98353  21.7921
 2.02589  21.6927
 2.06826  21.6703
 2.11063  21.6705
 2.153  21.2504
 2.19536  21.3628
 2.23773  21.6099
 2.2801  21.6393
 2.32247  21.6659
 2.36483  21.6784
 2.4072  21.7012
 2.44957  21.7075
 2.49194  21.5539
 2.5343  21.397
 2.57667  21.6138
 2.61904  21.5565
 2.66141  21.6073
 2.70377  21.71
 2.74614  21.6974
 2.78851  21.7062
 2.83088  21.8974
 2.87324  22.0189
 2.91561  22.1591
 2.95798  21.8776
 3.00035  21.8839
 3.04272  22.1328
 3.08508  21.9358
 3.12745  22.0863
 3.16982  35.9624
 3.21219  23.5816
 3.25455  22.2763
 3.29692  21.8376
 3.33929  21.6276
 3.38166  21.4293
 3.42402  21.6101
 3.46639  21.326
 3.50876  21.1359
 3.55113  20.9822
 3.59349  20.8114
 3.63586  20.7215
 3.67823  20.7376
 3.7206  20.5016
 3.76296  20.4324
 3.80533  20.1335
 3.8477  20.1951
 3.89007  20.0552
 3.93243  20.0272
 3.9748  19.9116
 4.01717  19.6396
 4.05954  19.6095
 4.1019  19.6089
 4.14427  19.2513
 4.18664  19.4558
 4.22901  19.3147
 4.27137  19.3471
 4.31374  19.0283
 4.35611  19.1899
 4.39848  18.9931
 4.44085  19.1056
 4.48321  28.1328
 4.52558  23.9662
 4.56795  19.0711
 4.61032  18.7451
 4.65268  18.7799
 4.69505  18.4863
 4.73742  18.5038
 4.77979  18.472
 4.82215  18.1401
 4.86452  18.3483
 4.90689  18.3185
 4.94926  18.0738
 4.99162  18.0987
 5.03399  18.1839
 5.07636  17.9061
 5.11873  17.8504
 5.16109  17.8619
 5.20346  17.7132
 5.24583  17.867
 5.2882  17.6675
 5.33056  17.7641
 5.37293  17.6688
 5.4153  17.7124
 5.45767  17.8265
 5.50003  26.703
 5.5424  19.6973
 5.58477  17.6361
 5.62714  17.4986
 5.6695  17.4186
 5.71187  17.3179
 5.75424  17.3324
 5.79661  17.2641
 5.83897  17.0724
 5.88134  17.1877
 5.92371  17.1487
 5.96608  17.1086
 6.00845  17.2324
 6.05081  17.0891
 6.09318  17.0135
 6.13555  17.0217
 6.17792  16.9588
 6.22028  16.9839
 6.26265  17.0035
 6.30502  16.8652
 6.34739  19.4649
 6.38975  18.7782
 6.43212  16.9149
 6.47449  16.8099
 6.51686  16.83
 6.55922  16.6767
 6.60159  16.7069
 6.64396  16.6707
 6.68633  16.6829
 6.72869  16.6585
 6.77106  16.6275
 6.81343  16.5424
 6.8558  16.8037
 6.89816  16.6197
 6.94053  16.5563
 6.9829  16.489
 7.02527  16.5474
 7.06763  16.8949
 7.11  28.991
 7.15237  18.9951
 7.19474  16.589
 7.2371  16.534
 7.27947  16.2638
 7.32184  16.4166
 7.36421  16.2707
 7.40658  16.2604
 7.44894  16.252
 7.49131  16.2163
 7.53368  16.3025
 7.57605  16.1359
 7.61841  16.2042
 7.66078  16.2141
 7.70315  16.1482
 7.74552  16.3293
 7.78788  22.3913
 7.83025  18.361
 7.87262  16.0798
 7.91499  16.038
 7.95735  16.0025
 7.99972  15.9943
 8.04209  16.0071
 8.08446  15.8174
 8.12682  15.8236
 8.16919  15.9396
 8.21156  15.8852
 8.25393  15.8734
 8.29629  15.8359
 8.33866  15.8063
 8.38103  15.795
 8.4234  15.95
 8.46576  15.6917
 8.50813  15.786
 8.5505  15.8452
 8.59287  15.8251
 8.63523  15.8285
 8.6776  15.7914
 8.71997  15.7273
 8.76234  15.6452
 8.8047  15.6797
 8.84707  15.5878
 8.88944  15.6222
 8.93181  15.6198
 8.97418  16.0174
 9.01654  17.2613
 9.05891  15.7115
 9.10128  15.5909
 9.14365  15.6223
 9.18601  15.4776
 9.22838  15.5741
 9.27075  15.5561
 9.31312  15.5286
 9.35548  15.4456
 9.39785  15.4864
 9.44022  15.4133
 9.48259  15.4481
 9.52495  16.6777
 9.56732  22.1964
 9.60969  15.6165
 9.65206  15.2912
 9.69442  15.2119
 9.73679  15.2134
 9.77916  15.1761
 9.82153  15.163
 9.86389  14.9088
 9.90626  14.9214
 9.94863  14.9717
 9.991  14.9036
 10.0334  15.3336
 10.0757  19.3974
 10.1181  15.3994
 10.1605  14.7359
 10.2028  14.5699
 10.2452  14.6017
 10.2876  14.5323
 10.3299  14.4613
 10.3723  14.4531
 10.4147  14.4537
 10.457  14.2398
 10.4994  14.3023
 10.5418  15.1001
 10.5841  16.7288
 10.6265  14.3126
 10.6689  13.9585
 10.7112  14.0068
 10.7536  13.8773
 10.796  13.8217
 10.8383  13.7724
 10.8807  13.7887
 10.9231  13.7993
 10.9655  13.7325
 11.0078  13.7288
 11.0502  13.821
 11.0926  13.5615
 11.1349  13.3988
 11.1773  13.2726
 11.2197  13.4386
 11.262  13.1312
 11.3044  11.9288